File: metadata/2021-040_Harms-et-al_3_XRF_Element_Data_Composite_Core.csv
Comp Depth [cm],Al, Si, P, S, Ar, K, Ca, Ti, Mn, Fe, Ni, Rb,  Zr, Ca_Ti, Si_Ti, Zr_Ti, Ni_Ti, Fe_Ti, Al_Ti, K_Ti, Rb_K,core name
0,885,9261,0,259,10262,101821,607899,50303,5553,195282,1041,3335,1553,12.0847,0.184104,0.03087291,0.0206946,3.88211,0.0175934,2.02415,0.0327536,HIBO19-C-1-1
0.5,809,9721,0,234,10006,98727,668424,51084,5629,191284,1017,3164,1518,13.0848,0.190294,0.0297158,0.0199084,3.7445,0.0158367,1.93264,0.032048,HIBO19-C-1-1
1,821,7745,0,350,10111,83539,644491,42902,4779,165767,1138,2736,1097,15.0224,0.180528,0.0255699,0.02652557,3.86385,0.0191366,1.94721,0.03275117,HIBO19-C-1-1
1.5,586,5683,0,309,10160,61099,702795,27700,5692,111999,1133,2284,410,25.3717,0.205162,0.0148014,0.0409025,4.04329,0.0211552,2.20574,0.037382,HIBO19-C-1-1
2,669,5968,0,444,9623,72083,677759,29362,5203,111958,995,2429,990,23.0829,0.203256,0.033717,0.0338873,3.81302,0.0227846,2.45498,0.0336973,HIBO19-C-1-1
2.5,748,6570,0,369,9811,88399,566165,30183,4628,119832,915,3452,723,18.7577,0.2176722,0.0239539,0.0303151,3.97018,0.0247822,2.92877,0.0390502,HIBO19-C-1-1
3,473,3585,0,420,9853,41403,813059,17614,7156,77036,1100,1616,334,46.1598,0.203531,0.0189622,0.0624503,4.37357,0.0268536,2.35057,0.039031,HIBO19-C-1-1
3.5,451,3877,0,425,9966,41192,770187,19641,7739,84804,1110,1665,403,39.2132,0.197393,0.0205183,0.0565144,4.3177,0.0229622,2.09725,0.04042047,HIBO19-C-1-1
4,567,5032,0,446,10858,48280,661785,22482,6344,106653,1013,2193,549,29.4362,0.223824,0.0244195,0.0450583,4.74393,0.0252202,2.1475,0.0454225,HIBO19-C-1-1
4.5,554,4139,0,496,9143,49661,340031,19459,5284,107545,776,1866,583,17.4742,0.212704,0.02996043,0.0398787,5.52675,0.0284701,2.55208,0.0375748,HIBO19-C-1-1
5,613,5453,0,475,9984,58302,546319,21362,5726,124781,1156,1657,581,25.5743,0.255266,0.0271978,0.0541148,5.84126,0.0286958,2.72924,0.02842098,HIBO19-C-1-1
5.5,982,7636,0,341,9961,69078,632513,21198,4152,105354,1091,1453,456,29.8383,0.360223,0.0215115,0.05146712,4.97,0.0463251,3.2587,0.0210342,HIBO19-C-1-1
6,364,3015,0,463,7437,23633,443542,12005,3735,93079,783,1354,488,36.9464,0.251145,0.0406497,0.0652228,7.75335,0.0303207,1.9686,0.0572928,HIBO19-C-1-1
6.5,411,2493,0,530,8299,34239,544577,17907,5797,130455,994,1858,613,30.4114,0.1392193,0.0342324,0.055509,7.28514,0.0229519,1.91205,0.0542656,HIBO19-C-1-1
7,429,3469,0,486,9155,39120,635584,17980,5916,122801,1115,1711,478,35.3495,0.192937,0.0265851,0.0620133,6.82987,0.0238598,2.17575,0.0437372,HIBO19-C-1-1
7.5,485,3945,0,432,9308,48787,466754,25274,6545,136061,1016,2359,1004,18.4678,0.156089,0.0397246,0.0401994,5.38344,0.0191897,1.93032,0.048353,HIBO19-C-1-1
8,356,2648,0,478,8713,36309,427400,19560,6972,118268,973,1839,513,21.8507,0.135378,0.026227,0.0497444,6.04642,0.0182004,1.85629,0.0506486,HIBO19-C-1-1
8.5,310,2876,0,460,8705,35376,546107,16680,6942,104472,994,1672,731,32.7402,0.172422,0.04382494,0.0595923,6.26331,0.0185851,2.12086,0.0472637,HIBO19-C-1-1
9,390,2980,0,404,8457,41779,610682,18555,7822,97219,1012,2065,679,32.912,0.160604,0.03659391,0.0545406,5.2395,0.0210186,2.25163,0.0494267,HIBO19-C-1-1
9.5,414,4026,0,374,9205,45041,496044,21787,7281,107851,1094,2344,790,22.7679,0.184789,0.0362602,0.05021343,4.95025,0.0190022,2.06733,0.0520415,HIBO19-C-1-1
10,466,4840,0,324,9064,52499,493788,26181,6346,129874,947,2553,546,18.8605,0.184867,0.0208548,0.0361713,4.96062,0.0177992,2.00523,0.0486295,HIBO19-C-1-1
10.5,444,4244,0,408,9265,51469,543991,21729,7125,110134,939,2789,474,25.0353,0.195315,0.0218142,0.0432141,5.06853,0.0204335,2.36868,0.054188,HIBO19-C-1-1
11,379,3781,0,317,8854,44545,641885,19456,6047,101829,1030,2033,167,32.9916,0.194336,0.00858347,0.05294,5.23381,0.0194799,2.28953,0.0456392,HIBO19-C-1-1
11.5,385,3511,0,192,8742,42304,649960,19296,5412,109874,932,1934,455,33.6837,0.181955,0.02358,0.0483002,5.69413,0.0199523,2.19237,0.0457167,HIBO19-C-1-1
12,322,2710,0,311,9106,29528,522275,14796,7075,96670,795,1795,417,35.2984,0.183158,0.0281833,0.0537307,6.53352,0.0217626,1.99567,0.0607898,HIBO19-C-1-1
12.5,414,2520,0,316,9046,31204,524889,16144,6459,97000,637,1881,898,32.5129,0.156095,0.0556244,0.0394574,6.00842,0.0256442,1.93285,0.0602807,HIBO19-C-1-1
13,385,2977,0,302,9149,33413,546079,16852,7325,108759,800,1977,388,32.4044,0.176656,0.023024,0.04747211,6.45377,0.022846,1.98273,0.0591686,HIBO19-C-1-1
13.5,422,4211,0,289,9447,49294,500791,24002,6399,128919,894,2520,590,20.8646,0.175444,0.0245813,0.0372469,5.37118,0.0175819,2.05375,0.05112184,HIBO19-C-1-1
14,494,4510,0,231,9000,51968,599968,24427,7410,122985,845,2149,561,24.5617,0.184632,0.02296639,0.0345929,5.0348,0.0202235,2.12748,0.0413524,HIBO19-C-1-1
14.5,496,4445,0,180,8912,54775,641769,24766,8545,126606,1178,2301,668,25.9133,0.17948,0.0269725,0.04756521,5.11209,0.0200275,2.2117,0.0420082,HIBO19-C-1-1
15,553,4917,0,270,9027,57884,609782,26271,7281,145606,819,2498,806,23.2112,0.187165,0.0306802,0.03117506,5.54246,0.0210498,2.20334,0.0431553,HIBO19-C-1-1
15.5,513,5282,0,110,9426,66512,613996,28311,10072,139949,837,2494,1045,21.6875,0.186571,0.0369114,0.02956448,4.94327,0.0181202,2.34933,0.037497,HIBO19-C-1-1
16,533,5273,0,179,8967,63220,659042,27314,5508,130606,1008,2358,768,24.1284,0.193051,0.0281174,0.0369042,4.78165,0.0195138,2.31456,0.0372983,HIBO19-C-1-1
16.5,626,5516,0,78,9124,71768,579048,30974,5260,142307,962,2569,726,18.6946,0.178085,0.023439,0.0310583,4.5944,0.0202105,2.31704,0.0357959,HIBO19-C-1-1
17,590,5399,0,118,9422,66275,696530,27891,7331,135257,1020,2729,669,24.9733,0.193575,0.0239862,0.0365709,4.84949,0.0211538,2.37621,0.0411769,HIBO19-C-1-1
17.5,710,6272,0,139,9667,68924,659473,30155,5284,142572,996,2571,873,21.8694,0.207992,0.0289504,0.0330293,4.72797,0.023545,2.28566,0.037302,HIBO19-C-1-1
18,513,5158,0,86,8900,60861,678492,26840,6369,132943,1122,2311,847,25.2791,0.192176,0.0315574,0.0418033,4.95317,0.0191133,2.26755,0.0379718,HIBO19-C-1-1
18.5,446,4770,0,96,8936,61955,640314,26328,6093,131894,821,2382,765,24.3206,0.181176,0.0290565,0.0311835,5.00965,0.01694014,2.3532,0.03844726,HIBO19-C-1-1
19,650,6131,0,119,9236,85099,436851,35296,5225,170901,984,3878,862,12.3768,0.173702,0.024422,0.0278785,4.84194,0.0184157,2.41101,0.0455705,HIBO19-C-1-1
19.5,751,6107,0,149,9433,78884,486742,42682,6847,180419,1018,3410,1408,11.4039,0.143081,0.0329881,0.0238508,4.22705,0.0175952,1.84818,0.043228,HIBO19-C-1-1
20,686,6718,0,181,8939,64030,615825,29245,8998,149440,939,2651,544,21.0574,0.229714,0.01860147,0.0321081,5.10993,0.023457,2.18943,0.0414025,HIBO19-C-1-1
20.5,662,6837,0,153,8891,66430,707454,28377,6610,141303,1121,2295,676,24.9305,0.240935,0.0238221,0.0395038,4.97949,0.0233288,2.34098,0.0345476,HIBO19-C-1-1
21,565,4654,0,22,8705,63235,565552,28940,6563,145599,862,2692,980,19.5422,0.160815,0.0338632,0.0297858,5.03106,0.0195232,2.18504,0.0425714,HIBO19-C-1-1
21.5,630,6755,0,85,9151,90750,679818,40242,6198,171518,898,3142,1048,16.8932,0.167859,0.0260424,0.022315,4.26216,0.0156553,2.25511,0.03462259,HIBO19-C-1-1
22,609,6685,0,126,9055,76283,615328,34039,8310,175920,851,2832,801,18.0771,0.196392,0.0235318,0.0250007,5.16819,0.0178912,2.24105,0.0371249,HIBO19-C-1-1
22.5,680,6051,0,76,8969,79318,596830,32687,5639,162904,882,3028,745,18.2589,0.185119,0.0227919,0.0269832,4.98376,0.0208034,2.42659,0.0381754,HIBO19-C-1-1
23,691,6340,0,138,8947,100696,460626,44459,7504,177659,797,4160,1015,10.3607,0.142603,0.02283,0.0179266,3.99602,0.01554241,2.26492,0.0413125,HIBO19-C-1-1
23.5,786,7540,0,89,8869,103132,587813,46091,7179,181520,1137,3583,1081,12.7533,0.163589,0.0234536,0.02466859,3.9383,0.0170532,2.23757,0.0347419,HIBO19-C-1-1
24,842,7463,0,57,8412,81965,612053,32450,6459,162514,828,3339,908,18.8614,0.229985,0.02798151,0.0255162,5.00814,0.0259476,2.52589,0.0407369,HIBO19-C-1-1
24.5,888,8550,0,188,8138,82679,641874,32535,8205,161411,1085,3467,773,19.7287,0.262794,0.023759,0.0333487,4.96115,0.0272937,2.54123,0.04193326,HIBO19-C-1-1
25,718,6593,0,138,8510,74721,521309,31374,7851,150919,700,3103,853,16.616,0.210142,0.0271881,0.0223115,4.81032,0.0228852,2.38162,0.0415278,HIBO19-C-1-1
25.5,741,6127,0,73,9035,86892,497293,44306,8934,184355,900,3793,1288,11.2241,0.138288,0.0290706,0.0203133,4.16095,0.0167246,1.96118,0.04365189,HIBO19-C-1-1
26,622,5724,0,107,8701,86091,436810,38158,6668,175286,960,3747,877,11.4474,0.150008,0.0229834,0.0251586,4.59369,0.0163006,2.25617,0.0435237,HIBO19-C-1-1
26.5,758,6309,0,119,8845,93022,469650,40043,7075,179163,801,3816,689,11.7286,0.157556,0.0172065,0.0200035,4.47427,0.0189297,2.32305,0.0410226,HIBO19-C-1-1
27,915,7026,0,99,9173,116164,471280,54710,8753,198271,903,4469,1426,8.61415,0.128423,0.0260647,0.0165052,3.62404,0.0167245,2.12327,0.0384715,HIBO19-C-1-1
27.5,909,6963,0,114,9229,102893,423694,48889,6824,189447,895,4377,945,8.66645,0.142425,0.0193295,0.0183068,3.87504,0.01859314,2.10462,0.0425393,HIBO19-C-1-1
28,1095,9939,0,126,9230,117302,592665,60621,10298,210919,1104,3776,1693,9.77656,0.163953,0.0279276,0.0182115,3.47931,0.018063,1.93501,0.0321904,HIBO19-C-1-1
28.5,874,7864,0,25,8957,95730,454031,40659,6414,178568,957,3756,1049,11.1668,0.193414,0.0257999,0.0235372,4.39184,0.0214959,2.35446,0.0392353,HIBO19-C-1-1
29,834,6582,0,80,9085,101529,412845,52646,9086,201651,1094,4015,1331,7.84191,0.125024,0.0252821,0.0207803,3.83032,0.0158417,1.92852,0.0395454,HIBO19-C-1-1
29.5,843,6918,0,72,9207,115559,486543,56528,6337,221635,870,4052,1309,8.60712,0.122382,0.0231567,0.0153906,3.9208,0.014913,2.04428,0.0350643,HIBO19-C-1-1
30,688,6156,0,175,9250,96378,637590,58036,7473,240088,1037,3315,1733,10.9861,0.106072,0.0298608,0.01786822,4.13688,0.0118547,1.66066,0.0343958,HIBO19-C-1-1
30.5,601,5265,0,160,8435,76788,564397,41686,7660,194384,914,3396,1259,13.5392,0.126301,0.030202,0.0219258,4.66305,0.01441731,1.84206,0.04422566,HIBO19-C-1-1
31,614,5431,0,100,8722,74160,597957,38754,9195,171907,856,2863,953,15.4296,0.14014,0.02459101,0.022088,4.43585,0.0158435,1.91361,0.0386057,HIBO19-C-1-1
31.5,673,6966,0,49,8801,86993,779699,41077,8903,172839,1043,2932,1103,18.9814,0.169584,0.02685201,0.0253913,4.20768,0.0163839,2.1178,0.0337039,HIBO19-C-1-1
32,699,6480,0,135,8944,81903,560759,35457,7405,168096,815,3057,1040,15.8152,0.182757,0.0293313,0.0229856,4.74084,0.01971402,2.30992,0.03732464,HIBO19-C-1-1
32.5,827,7663,0,14,9073,105477,532360,43125,7625,176206,1099,3833,904,12.3446,0.177693,0.0209623,0.0254841,4.08594,0.0191768,2.44584,0.0363397,HIBO19-C-1-1
33,626,5956,0,9,8826,79561,526819,37947,7209,177633,974,3157,1223,13.883,0.156956,0.0322292,0.0256674,4.68108,0.0164967,2.09663,0.0396802,HIBO19-C-1-1
33.5,805,7679,0,0,9266,101210,677579,51203,7035,192831,736,3125,1498,13.2332,0.149972,0.0292561,0.0143742,3.76601,0.0157217,1.97664,0.0308764,HIBO19-C-1-1
34,760,7258,0,0,9132,102293,726815,48767,6820,186993,1001,3345,1622,14.9038,0.14883,0.0332602,0.0205262,3.83442,0.0155843,2.09759,0.0327002,HIBO19-C-1-1
34.5,714,6074,0,14,8878,100560,476519,44327,6936,183204,883,3716,1050,10.7501,0.137027,0.0236876,0.0199201,4.13301,0.0161076,2.26859,0.0369531,HIBO19-C-1-1
35,623,6188,0,43,8709,85067,508492,35646,7709,172174,942,3352,1140,14.2651,0.173596,0.0319811,0.0264265,4.83011,0.0174774,2.38644,0.0394042,HIBO19-C-1-1
35.5,853,7362,0,73,9198,105384,505575,43099,7355,181240,878,4054,1027,11.7306,0.170816,0.0238289,0.0203717,4.2052,0.0197916,2.44516,0.0384688,HIBO19-C-1-1
36,589,5222,0,119,8532,78564,487632,33869,7775,171675,1013,3664,966,14.3976,0.154182,0.0285217,0.0299094,5.06879,0.0173905,2.31964,0.0466371,HIBO19-C-1-1
36.5,629,5767,0,143,8713,82334,504541,35481,8606,178928,980,3397,996,14.22,0.162538,0.0280714,0.0276204,5.04292,0.0177278,2.32051,0.0412588,HIBO19-C-1-1
37,633,5303,0,48,8790,72512,448292,32598,7299,169301,901,3597,906,13.7521,0.162679,0.0277931,0.0276397,5.1936,0.0194184,2.22443,0.0496056,HIBO19-C-1-1
37.5,770,7399,0,0,8697,99409,499018,43160,5902,176989,1085,3543,1075,11.562,0.171432,0.0249073,0.025139,4.10076,0.0178406,2.30327,0.0356406,HIBO19-C-1-1
38,784,6565,0,65,9243,111369,405328,51237,6736,190615,950,4335,919,7.91085,0.12813,0.0179363,0.0185413,3.72026,0.0153014,2.17361,0.0389247,HIBO19-C-1-1
38.5,781,6863,0,131,8836,99123,445552,41237,6745,191561,1103,3816,1009,10.8047,0.166428,0.0244683,0.0267478,4.64537,0.0189393,2.40374,0.0384976,HIBO19-C-1-1
39,690,5881,0,55,8838,85925,496789,40613,7184,186878,988,3565,941,12.2323,0.144806,0.0231699,0.0243272,4.60143,0.0169896,2.1157,0.0414897,HIBO19-C-1-1
39.5,815,6756,0,22,8811,110368,451867,41318,7194,188374,978,4129,1133,10.9363,0.163512,0.0274215,0.0236701,4.55913,0.0197251,2.67118,0.0374112,HIBO19-C-1-1
40,918,6535,0,106,9447,136269,305209,58391,6256,249462,1014,4984,1043,5.22699,0.111918,0.0178623,0.01736569,4.27227,0.0157216,2.33373,0.0365747,HIBO19-C-1-1
40.5,682,5226,0,79,8888,108765,416954,59661,7145,243807,984,4080,1501,6.98872,0.0875949,0.0251588,0.0164932,4.08654,0.0114313,1.82305,0.0375121,HIBO19-C-1-1
41,697,6199,0,39,8835,100113,515112,47928,7647,194061,1021,3593,1187,10.7476,0.12934,0.0247663,0.0213028,4.04901,0.0145426,2.08882,0.0358894,HIBO19-C-1-1
41.5,672,6606,0,0,9049,98894,505352,42925,8532,184302,947,3630,1188,11.7729,0.153896,0.0276762,0.0220617,4.29358,0.0156552,2.30388,0.036706,HIBO19-C-1-1
42,618,5793,0,40,8892,83983,442885,36440,5593,171110,1008,3456,844,12.1538,0.158974,0.0231614,0.02766191,4.69566,0.0169594,2.30469,0.0411512,HIBO19-C-1-1
42.5,686,6354,0,0,8746,93256,491534,40168,6938,177928,844,3725,1038,12.237,0.158186,0.0258415,0.0210118,4.4296,0.0170783,2.32165,0.0399438,HIBO19-C-1-1
43,543,6165,0,0,9051,83841,573096,36362,5852,172229,922,2996,887,15.7608,0.169545,0.0243936,0.0253561,4.73651,0.0149332,2.30573,0.0357343,HIBO19-C-1-1
43.5,718,5912,0,0,8390,92697,492612,37056,6952,169517,884,3829,739,13.2937,0.159542,0.0199428,0.0238558,4.57462,0.0193761,2.50154,0.0413066,HIBO19-C-1-1
44,796,6566,0,0,9122,92199,472677,37401,5919,175628,705,3843,653,12.6381,0.175557,0.0174594,0.0188498,4.69581,0.0212829,2.46515,0.04168158,HIBO19-C-1-1
44.5,788,6659,0,0,8656,90237,453309,37621,7516,170492,953,3820,786,12.0494,0.177002,0.0208926,0.0253316,4.53183,0.0209457,2.39858,0.042333,HIBO19-C-1-1
45,879,7636,0,0,8612,103594,413997,44828,7980,195295,1204,4125,1022,9.23523,0.17034,0.0227983,0.0268582,4.35654,0.0196083,2.31092,0.0398189,HIBO19-C-1-1
45.5,787,6866,0,0,8863,87421,485323,40116,7243,181387,1021,3339,1076,12.098,0.171154,0.0268222,0.0254512,4.52156,0.0196181,2.17921,0.0381945,HIBO19-C-1-1
46,751,6105,0,9,9320,99573,457686,49291,7711,191738,1058,4009,1054,9.28539,0.123856,0.0213832,0.0214644,3.88992,0.015236,2.02011,0.0402619,HIBO19-C-1-1
46.5,739,6875,0,12,9020,90434,573659,37750,7289,165737,1215,3517,921,15.1963,0.182119,0.0243974,0.03218543,4.39038,0.0195762,2.3956,0.03889024,HIBO19-C-1-1
47,710,6206,0,68,9394,96828,436917,42389,7468,179713,1033,4196,824,10.3073,0.146406,0.019439,0.02436953,4.23961,0.0167496,2.28427,0.0433346,HIBO19-C-1-1
47.5,767,5859,0,88,9049,96825,372232,42641,8647,176855,1009,4131,1240,8.72944,0.137403,0.02908,0.0236627,4.14753,0.0179874,2.2707,0.0426646,HIBO19-C-1-1
48,677,6234,0,0,9131,91455,476158,42609,8466,179949,1141,3743,896,11.1751,0.146307,0.0210284,0.02677838,4.22326,0.0158887,2.14638,0.0409272,HIBO19-C-1-1
48.5,601,5555,0,0,8989,78489,562847,38393,6748,174556,911,3134,1097,14.6601,0.144688,0.0285729,0.0237283,4.54656,0.0156539,2.04436,0.0399292,HIBO19-C-1-1
49,580,5518,0,38,9059,81688,525627,34954,7507,162039,948,3527,1141,15.0377,0.157865,0.0326429,0.02712136,4.63578,0.0165932,2.33701,0.0431765,HIBO19-C-1-1
49.5,581,5739,0,20,9391,78305,598399,34247,6500,163784,1103,2855,935,17.473,0.167577,0.0273017,0.0322072,4.78243,0.01696499,2.28648,0.03646,HIBO19-C-1-1
50,621,4971,0,0,9427,73867,644553,35309,7551,164874,988,2783,1106,18.2546,0.140786,0.0313235,0.0279815,4.66946,0.0175876,2.09202,0.0376758,HIBO19-C-1-1
50.5,504,5081,0,0,9107,69376,627825,36106,7694,169031,1060,2896,1170,17.3884,0.140725,0.0324046,0.029358,4.68152,0.0139589,1.92145,0.0417435,HIBO19-C-1-1
51,631,5960,0,0,9485,77155,572501,37088,6578,171014,957,3081,1117,15.4363,0.160699,0.0301176,0.0258035,4.61103,0.0170136,2.08032,0.0399326,HIBO19-C-1-1
51.5,663,5588,0,38,9171,76246,517712,36496,7444,183493,990,3489,1133,14.1854,0.153113,0.0310445,0.02712626,5.02776,0.0181664,2.08916,0.0457598,HIBO19-C-1-1
52,703,5752,0,12,9314,89340,467830,39086,7024,177004,930,3717,933,11.9692,0.147163,0.02387044,0.0237937,4.52858,0.01798598,2.28573,0.0416051,HIBO19-C-1-1
52.5,577,5256,0,0,9541,82969,479261,37382,6134,174801,756,3605,1142,12.8206,0.140602,0.0305495,0.0202236,4.67607,0.0154352,2.21949,0.04345,HIBO19-C-1-1
53,581,6344,0,0,9314,83558,556026,38663,6445,178850,913,3318,797,14.3813,0.164085,0.020614,0.0236143,4.62587,0.0150273,2.16119,0.0397089,HIBO19-C-1-1
53.5,779,6955,0,9,9536,95395,495422,41556,5849,185918,1057,3629,1139,11.9218,0.167365,0.0274088,0.0254356,4.47391,0.0187458,2.29558,0.0380418,HIBO19-C-1-1
54,760,6186,0,44,9650,86731,524572,49303,7409,193591,1052,3484,1696,10.6398,0.125469,0.0343995,0.0213374,3.92656,0.0154149,1.75914,0.0401702,HIBO19-C-1-1
54.5,503,4343,0,138,8858,62592,558796,42328,5935,181063,853,2947,1617,13.2016,0.102603,0.0382017,0.0201521,4.27762,0.0118834,1.47874,0.0470827,HIBO19-C-1-1
55,620,5813,0,51,8693,66651,565482,35471,7009,169216,1011,3256,1045,15.9421,0.16388,0.0294607,0.0285022,4.77054,0.0174791,1.87903,0.04885148,HIBO19-C-1-1
55.5,754,7163,0,77,8504,75040,518833,31267,6053,153385,901,3250,970,16.5936,0.229091,0.0310231,0.0288163,4.90565,0.0241149,2.39997,0.0433102,HIBO19-C-1-1
56,807,7018,0,0,8476,80820,478981,33691,8965,160362,1096,3091,791,14.2169,0.208305,0.02347808,0.0325309,4.75979,0.023953,2.39886,0.0382455,HIBO19-C-1-1
56.5,638,5174,0,37,9210,81767,410962,39053,8398,177546,1338,3424,974,10.5232,0.132487,0.0249405,0.0342611,4.54628,0.0163368,2.09374,0.0418751,HIBO19-C-1-1
57,776,6995,0,0,9496,95115,491786,38904,7502,181258,985,3472,858,12.641,0.179802,0.0220543,0.0253187,4.65911,0.0199465,2.44486,0.03650318,HIBO19-C-1-1
57.5,814,7872,0,136,9282,108266,502552,45475,7225,186319,1200,3726,931,11.0512,0.173106,0.0204728,0.0263881,4.09717,0.0178999,2.38078,0.0344152,HIBO19-C-1-1
58,922,8988,0,0,9308,122515,435249,47275,6267,202500,965,3998,1060,9.20675,0.190122,0.022422,0.02041248,4.28345,0.0195029,2.59154,0.0326327,HIBO19-C-1-1
58.5,849,8851,0,51,9815,115972,547193,55775,6455,210527,901,3905,1283,9.81072,0.158691,0.0230031,0.0161542,3.77458,0.0152219,2.07928,0.0336719,HIBO19-C-1-1
59,1053,8167,0,122,9703,135678,379622,48865,6168,208597,1001,4733,1248,7.76879,0.167134,0.0255398,0.02048501,4.26884,0.0215492,2.77659,0.0348841,HIBO19-C-1-1
59.5,693,5530,0,97,9195,101688,401126,51611,6861,216924,1034,4370,1477,7.7721,0.107148,0.02861793,0.0200345,4.20306,0.01342737,1.97028,0.0429746,HIBO19-C-1-1
60,744,5840,0,109,9387,85594,476722,48488,7475,210749,773,3909,1939,9.83175,0.120442,0.0399893,0.0159421,4.34642,0.015344,1.76526,0.0456691,HIBO19-C-1-1
60.5,707,6401,0,92,9275,76780,513785,45880,7866,192175,805,3236,1649,11.1985,0.139516,0.0359416,0.0175458,4.18864,0.0154098,1.6735,0.0421464,HIBO19-C-1-1
61,816,7126,0,48,8200,75866,547392,43663,7800,191960,969,3258,1669,12.5367,0.163205,0.0382246,0.0221927,4.3964,0.0186886,1.73754,0.0429441,HIBO19-C-1-1
61.5,868,8142,0,85,8952,82253,477415,38012,9351,168114,931,3255,834,12.5596,0.214196,0.02194044,0.0244923,4.42266,0.0228349,2.16387,0.039573,HIBO19-C-1-1
62,894,7802,0,48,8922,95793,412579,43197,6996,174499,898,3948,1323,9.5511,0.180614,0.0306271,0.0207885,4.03961,0.0206959,2.21758,0.0412139,HIBO19-C-1-1
62.5,944,6089,0,84,8643,93296,277251,51256,8493,191011,1005,4144,1496,5.40914,0.118796,0.0291868,0.0196075,3.72661,0.0184174,1.8202,0.0444178,HIBO19-C-1-1
63,861,6352,0,139,8875,90060,415088,65742,10020,226510,1093,3534,2590,6.31389,0.0966201,0.0393964,0.0166256,3.44544,0.0130967,1.3699,0.0392405,HIBO19-C-1-1
63.5,730,6339,0,133,8472,85935,444961,51357,9406,191302,1123,3567,1476,8.66408,0.12343,0.02874,0.0218665,3.72494,0.0142142,1.67329,0.0415081,HIBO19-C-1-1
64,657,5920,0,124,9355,80982,478308,37004,6246,172762,1068,3405,963,12.9258,0.159983,0.0260242,0.0288617,4.66874,0.0177548,2.18847,0.0420464,HIBO19-C-1-1
64.5,732,7273,0,41,9186,97386,563204,42193,8038,176986,771,3611,1149,13.3483,0.172375,0.027232,0.0182732,4.19468,0.0173488,2.30811,0.0370793,HIBO19-C-1-1
65,699,6907,0,0,8796,94786,560983,43624,9098,186031,984,3241,1183,12.8595,0.15833,0.0271181,0.0225564,4.26442,0.01602329,2.17279,0.0341928,HIBO19-C-1-1
65.5,841,8040,0,102,9088,112852,440167,46495,10485,204637,924,3984,1014,9.46697,0.172922,0.0218088,0.0198731,4.40127,0.018088,2.42719,0.0353029,HIBO19-C-1-1
66,885,8364,0,0,9172,99313,529490,43487,7133,195589,1117,3655,905,12.1758,0.192333,0.0208108,0.0256858,4.49764,0.0203509,2.28374,0.0368028,HIBO19-C-1-1
66.5,716,7107,0,52,9284,94585,541658,43831,7336,175879,973,3689,999,12.3579,0.162146,0.0227921,0.0221989,4.01266,0.01633547,2.15795,0.039002,HIBO19-C-1-1
67,841,8105,0,0,9094,83091,649580,36468,8155,172803,793,3060,589,17.8123,0.22225,0.0161511,0.0217451,4.73848,0.0230613,2.27846,0.0368271,HIBO19-C-1-1
67.5,765,6856,0,0,9407,85649,522067,38399,6743,182885,959,3478,1147,13.5958,0.178546,0.02987057,0.0249746,4.76275,0.0199224,2.2305,0.0406076,HIBO19-C-1-1
68,508,5784,0,0,9688,76717,669388,34880,7810,164855,937,2759,1075,19.1912,0.165826,0.03082,0.0268635,4.72635,0.01456422,2.19946,0.0359633,HIBO19-C-1-1
68.5,690,6965,0,16,9929,86414,595810,36875,9615,168721,1166,2971,940,16.1576,0.188881,0.0254915,0.0316203,4.57548,0.0187119,2.34343,0.034381,HIBO19-C-1-1
69,715,6966,0,0,9568,85872,632779,35256,9709,168405,725,3090,649,17.9481,0.197583,0.0184082,0.0205639,4.77663,0.0202802,2.43567,0.03598379,HIBO19-C-1-1
69.5,695,6480,0,0,9751,84270,585836,36573,7077,170715,1246,3106,778,16.0183,0.17718,0.0212725,0.0340688,4.66779,0.01900309,2.30416,0.0368577,HIBO19-C-1-1
70,710,7224,0,0,9671,98848,573970,40341,8344,170320,958,3343,911,14.228,0.179073,0.0225825,0.0237476,4.22201,0.01759996,2.45031,0.0338196,HIBO19-C-1-1
70.5,778,6938,0,0,9454,91066,579507,35499,10894,165759,1185,3354,953,16.3246,0.195442,0.0268458,0.0333812,4.6694,0.02191611,2.56531,0.0368304,HIBO19-C-1-1
71,800,8006,0,33,9538,96302,519343,41008,7860,182141,1009,3652,975,12.6644,0.19523,0.0237758,0.024605,4.4416,0.0195084,2.34837,0.0379224,HIBO19-C-1-1
71.5,692,6519,0,0,9543,77486,588942,33120,7032,163407,1057,3158,720,17.7821,0.19683,0.02173913,0.0319143,4.93379,0.02089372,2.33955,0.0407557,HIBO19-C-1-1
72,736,6505,0,87,9442,77657,549704,33467,9204,162699,1086,3166,652,16.4253,0.194371,0.0194819,0.0324499,4.86148,0.0219918,2.32041,0.040769,HIBO19-C-1-1
72.5,810,7369,0,14,9650,93694,453291,42530,7471,176657,994,3701,715,10.6581,0.173266,0.0168117,0.0233717,4.1537,0.01904538,2.20301,0.0395009,HIBO19-C-1-1
73,724,6683,0,68,9464,84900,470235,37881,7679,164716,759,3712,1009,12.4135,0.176421,0.026636,0.02003643,4.34825,0.0191125,2.24123,0.043722,HIBO19-C-1-1
73.5,834,6814,0,31,9395,96856,452651,40836,8303,168626,916,3632,968,11.0846,0.166863,0.0237046,0.0224312,4.12935,0.0204232,2.37183,0.037499,HIBO19-C-1-1
74,753,6701,0,7,9720,85001,582027,35697,7878,164963,1059,3297,845,16.3046,0.187719,0.0236715,0.0296664,4.6212,0.02109421,2.38118,0.0387878,HIBO19-C-1-1
74.5,723,7105,0,25,9492,88298,565698,35858,7487,163172,1015,3523,1059,15.7761,0.198143,0.0295332,0.0283061,4.5505,0.0201629,2.46244,0.039899,HIBO19-C-1-1
75,748,7045,0,5,9520,86291,571869,36500,7463,168862,1176,3392,912,15.6676,0.193014,0.0249863,0.0322192,4.62636,0.0204932,2.36414,0.03930885,HIBO19-C-1-1
75.5,706,6790,0,0,9484,83921,561310,36388,10272,170011,999,3333,726,15.4257,0.1866,0.0199516,0.0274541,4.67217,0.019402,2.30628,0.0397159,HIBO19-C-1-1
76,738,6518,0,0,9669,78286,523649,35627,7156,178126,973,3834,1099,14.6981,0.182951,0.0308474,0.0273107,4.99975,0.0207146,2.19738,0.0489743,HIBO19-C-1-1
76.5,672,5982,0,0,9500,71111,510610,35165,7190,176691,1052,3205,1073,14.5204,0.170112,0.0305133,0.02991611,5.02463,0.01910991,2.02221,0.0450704,HIBO19-C-1-1
77,709,5957,0,28,9900,73814,497789,34162,6418,167885,930,3223,1021,14.5714,0.174375,0.029887,0.02722323,4.91438,0.0207541,2.1607,0.0436638,HIBO19-C-1-1
77.5,594,4984,0,19,9866,67963,534310,30729,7892,152963,876,2951,987,17.3878,0.162192,0.0321195,0.0285073,4.97781,0.0193303,2.21169,0.0434207,HIBO19-C-1-1
78,591,5884,0,0,9759,75710,600070,32769,8080,158579,930,3108,997,18.3121,0.17956,0.0304251,0.0283805,4.8393,0.0180353,2.31042,0.04105138,HIBO19-C-1-1
78.5,762,6121,0,16,9786,77151,559817,33876,7644,165726,1111,3176,959,16.5255,0.180688,0.0283091,0.03279608,4.89214,0.0224938,2.27745,0.041166,HIBO19-C-1-1
79,615,5627,0,84,9588,69277,552669,31730,7436,161857,877,3174,895,17.4179,0.17734,0.0282067,0.0276395,5.10107,0.0193823,2.18333,0.0458161,HIBO19-C-1-1
79.5,565,4883,0,89,9861,63029,551947,28402,7631,151115,1096,2722,712,19.4334,0.171925,0.0250687,0.0385888,5.32058,0.019893,2.21917,0.04318647,HIBO19-C-1-1
80,795,6718,0,54,10070,74586,590989,32283,8266,156721,862,3114,907,18.3065,0.208097,0.0280953,0.02670136,4.8546,0.024626,2.31038,0.0417505,HIBO19-C-1-1
80.5,595,6299,0,103,9675,69983,563082,31532,7893,156099,1005,3108,787,17.8575,0.199765,0.0249588,0.0318724,4.95049,0.01886972,2.21943,0.0444108,HIBO19-C-1-1
81,689,6123,0,95,9559,75620,538380,31591,7202,156255,816,3179,870,17.0422,0.193821,0.0275395,0.0258301,4.94619,0.02181,2.39372,0.0420391,HIBO19-C-1-1
81.5,775,6745,0,15,9070,74220,536115,32283,7675,159695,957,3188,1055,16.6067,0.208933,0.0326797,0.0296441,4.94672,0.0240064,2.29904,0.0429534,HIBO19-C-1-1
82,857,7636,0,67,9387,88250,515563,35566,6986,169327,1062,3594,920,14.496,0.214699,0.0258674,0.02986,4.76092,0.024096,2.4813,0.0407252,HIBO19-C-1-1
82.5,740,6566,0,0,9488,77261,621145,32517,8442,152188,883,3159,923,19.1022,0.201925,0.0283852,0.027155,4.68026,0.0227573,2.37602,0.0408874,HIBO19-C-1-1
83,700,6208,0,103,9492,80334,577882,34836,7965,160211,1074,3067,798,16.5886,0.178206,0.0229073,0.0308302,4.59901,0.0200942,2.30606,0.0381781,HIBO19-C-1-1
83.5,810,7484,0,30,9547,98609,556195,40268,8720,172215,981,3743,961,13.8123,0.185855,0.0238651,0.0243618,4.27672,0.0201152,2.44882,0.037958,HIBO19-C-1-1
84,838,7050,0,107,9478,103178,442241,39741,8366,168490,904,4135,867,11.1281,0.177399,0.02181626,0.0227473,4.2397,0.0210865,2.59626,0.0400764,HIBO19-C-1-1
84.5,981,8717,0,52,10052,103365,608650,39562,7161,168925,1239,3630,865,15.3847,0.220338,0.0218644,0.0313179,4.26988,0.0247965,2.61273,0.03511827,HIBO19-C-1-1
85,820,7959,0,27,10811,87365,663294,35132,7575,151672,947,2877,909,18.8801,0.226546,0.0258738,0.0269555,4.3172,0.0233405,2.48676,0.0329308,HIBO19-C-1-1
85.5,949,9366,0,47,10198,98213,636900,38993,7412,170830,976,3215,909,16.3337,0.240197,0.0233119,0.0250301,4.38104,0.0243377,2.51873,0.032735,HIBO19-C-1-1
86,901,9052,0,96,8972,96787,694554,37978,9038,166753,1135,3436,986,18.2883,0.238349,0.0259624,0.0298857,4.39078,0.0237243,2.5485,0.0355006,HIBO19-C-1-1
86.5,796,9157,0,137,8468,89675,697109,35108,10458,161878,962,3093,956,19.8561,0.260824,0.0272303,0.0274012,4.61086,0.0226729,2.55426,0.0344912,HIBO19-C-1-1
87,662,5927,0,117,8876,65033,491311,28638,9901,161615,991,3183,626,17.1559,0.206963,0.0218591,0.0346044,5.64338,0.0231161,2.27086,0.0489444,HIBO19-C-1-1
87.5,802,7358,0,80,9247,84864,602737,37673,11109,178037,937,2924,1101,15.9992,0.195312,0.0292252,0.0248719,4.72585,0.0212885,2.25265,0.0344551,HIBO19-C-1-1
88,1035,8533,0,96,9326,126995,373138,54454,6910,215253,1034,4817,1247,6.85235,0.156701,0.0229001,0.0189885,3.95293,0.0190069,2.33215,0.0379306,HIBO19-C-1-1
88.5,858,7855,0,0,9428,100410,500874,45701,7702,195158,1044,3724,1184,10.9598,0.171878,0.0259075,0.0228441,4.27032,0.0187742,2.19711,0.0370879,HIBO19-C-1-1
89,853,7994,0,129,9258,88814,537855,39480,7523,174935,839,3466,1070,13.6235,0.202482,0.02710233,0.0212513,4.43098,0.0216059,2.24959,0.0390254,HIBO19-C-1-1
89.5,775,7058,0,105,9419,97463,444263,45934,8074,187693,1042,4220,1042,9.67177,0.153655,0.0226847,0.0226847,4.08615,0.016872,2.12181,0.0432985,HIBO19-C-1-1
90,971,7762,0,110,9363,103388,462643,42733,8729,177398,943,3934,799,10.8264,0.181639,0.0186975,0.0220673,4.15131,0.0227225,2.41939,0.0380508,HIBO19-C-1-1
90.5,727,7131,0,137,9014,80150,599021,34280,8587,167353,1220,3146,793,17.4744,0.208022,0.023133,0.0355893,4.88194,0.0212077,2.3381,0.0392514,HIBO19-C-1-1
91,708,7126,0,40,8968,81644,635021,33655,7723,159056,1035,3518,903,18.8685,0.211737,0.02683108,0.0307532,4.72607,0.021037,2.42591,0.0430895,HIBO19-C-1-1
91.5,723,6912,0,90,9077,80074,632168,34852,7965,169759,1076,3049,1037,18.1386,0.198324,0.02975439,0.0308734,4.87085,0.0207449,2.29754,0.0380773,HIBO19-C-1-1
92,736,7042,0,69,9175,73922,694408,33594,7341,166324,1136,2880,753,20.6706,0.209621,0.0224147,0.0338156,4.951,0.0219087,2.20045,0.03896,HIBO19-C-1-1
92.5,666,6465,0,96,9298,72923,682513,34035,8317,171603,1135,2834,907,20.0533,0.189952,0.026649,0.033348,5.04196,0.0195681,2.14259,0.03886291,HIBO19-C-1-1
93,758,6972,0,127,9442,78144,635470,35732,5838,175894,1045,3189,874,17.7843,0.195119,0.0244599,0.0292455,4.92259,0.0212135,2.18695,0.0408093,HIBO19-C-1-1
93.5,796,7256,0,39,9473,77339,579917,36320,7446,178263,991,3074,1093,15.9669,0.19978,0.0300936,0.0272852,4.90812,0.0219163,2.12938,0.0397471,HIBO19-C-1-1
94,827,7392,0,114,9352,91056,510389,40146,8447,177124,1299,3363,904,12.7133,0.184128,0.02251781,0.0323569,4.412,0.0205998,2.26812,0.0369333,HIBO19-C-1-1
94.5,941,7737,0,98,9062,93242,513585,46147,6909,185091,1143,3670,1062,11.1293,0.16766,0.0230134,0.0247687,4.0109,0.0203914,2.02054,0.0393599,HIBO19-C-1-1
95,802,7008,0,139,9233,74805,507147,36657,8190,190404,987,3558,921,13.8349,0.191178,0.0251248,0.02692528,5.19421,0.0218785,2.04067,0.0475637,HIBO19-C-1-1
95.5,874,7981,0,176,9414,88257,514816,38677,8139,180612,970,3174,793,13.3106,0.20635,0.0205031,0.0250795,4.66975,0.0225974,2.2819,0.0359632,HIBO19-C-1-1
96,1029,9860,0,120,10069,111147,554173,46333,5970,180295,991,3727,954,11.9607,0.212807,0.0205901,0.0213886,3.89129,0.0222088,2.39887,0.0335322,HIBO19-C-1-1
96.5,902,9286,0,32,10215,84537,757056,36570,7989,159232,1212,2691,653,20.7016,0.253924,0.0178562,0.03314192,4.35417,0.024665,2.31165,0.0318322,HIBO19-C-1-1
97,957,9685,0,42,10557,87868,740081,37507,6869,163930,1067,2597,974,19.7318,0.258218,0.0259685,0.028448,4.37065,0.0255152,2.34271,0.0295557,HIBO19-C-1-1
97.5,981,9861,0,61,10384,88215,672775,38074,8067,169236,1092,2898,600,17.6702,0.258996,0.0157588,0.02868099,4.44492,0.0257656,2.31694,0.0328516,HIBO19-C-1-1
98,1142,10361,0,66,10014,104008,594707,41296,8566,189961,969,3354,822,14.4011,0.250896,0.0199051,0.0234647,4.59999,0.02765401,2.5186,0.0322475,HIBO19-C-1-1
98.5,871,8871,0,124,9507,88486,653804,37932,8696,179685,1052,2786,1022,17.2362,0.233866,0.026943,0.02773384,4.73703,0.0229621,2.33275,0.0314852,HIBO19-C-1-1
99,921,9618,0,62,9318,91347,632629,38838,8427,177520,989,3250,1323,16.2889,0.247644,0.0340646,0.0254648,4.57078,0.0237139,2.352,0.0355786,HIBO19-C-1-1
99.5,744,7242,0,57,9155,67938,733536,32216,9064,152882,1084,2827,882,22.7693,0.224795,0.0273777,0.0336479,4.74553,0.0230941,2.10883,0.0416115,HIBO19-C-1-1
100,832,7556,0,149,9349,72286,793847,33354,8381,154258,1157,2631,922,23.8007,0.22654,0.0276429,0.0346885,4.62487,0.0249445,2.16724,0.0363971,HIBO19-C-1-1
100.5,871,8098,0,0,9459,76968,810085,36618,7469,187694,1000,2295,995,22.1226,0.221148,0.0271724,0.027309,5.12573,0.0237861,2.10192,0.0298176,HIBO19-C-1-1
101,933,9107,0,16,8606,80304,811139,33952,4208,147988,967,2640,925,23.8908,0.268232,0.0272443,0.0284814,4.35874,0.02748,2.36522,0.0328751,HIBO19-B-1-1
101.5,899,9199,0,138,8715,78994,768768,33993,3584,155863,860,2973,864,22.6155,0.270615,0.025417,0.0252993,4.58515,0.0264466,2.32383,0.03763577,HIBO19-B-1-1
102,944,9483,0,102,8684,79672,811009,35021,11397,157140,931,2702,1020,23.1578,0.27078,0.0291254,0.02658405,4.48702,0.0269553,2.27498,0.033914,HIBO19-B-1-1
102.5,791,8044,0,106,8498,72587,807663,32175,11542,153273,784,2372,826,25.1022,0.250008,0.0256721,0.0243667,4.76373,0.0245843,2.25601,0.032678,HIBO19-B-1-1
103,831,8269,0,89,8661,72798,795931,32748,7755,149891,1060,2812,1015,24.3047,0.252504,0.0309943,0.0323684,4.5771,0.0253756,2.22298,0.0386274,HIBO19-B-1-1
103.5,947,8621,0,109,8912,77914,785874,34506,10815,155146,1057,2618,816,22.775,0.249841,0.0236481,0.0306324,4.4962,0.0274445,2.25798,0.03360115,HIBO19-B-1-1
104,929,9103,0,54,8376,78034,759486,36058,9064,170678,1108,3168,1014,21.0629,0.252454,0.02812136,0.0307283,4.73343,0.025764,2.16412,0.0405977,HIBO19-B-1-1
104.5,612,5955,0,187,8417,62845,577462,30069,2683,155270,797,3273,1006,19.2046,0.198044,0.0334564,0.0265057,5.16379,0.0203532,2.09003,0.0520805,HIBO19-B-1-1
105,919,9071,0,33,8949,80694,690807,35023,4307,158213,1030,3063,923,19.7244,0.259001,0.02635411,0.0294092,4.5174,0.0262399,2.30403,0.0379582,HIBO19-B-1-1
105.5,874,8628,0,75,8915,73277,828369,32825,5592,146659,958,2630,834,25.2359,0.262848,0.0254075,0.0291851,4.46791,0.026626,2.23235,0.0358912,HIBO19-B-1-1
106,964,9209,0,45,8584,77201,782971,35434,5009,164253,896,2767,734,22.0966,0.259892,0.0207146,0.0252864,4.63546,0.0272055,2.17873,0.0358415,HIBO19-B-1-1
106.5,926,9339,0,51,8547,79483,751153,36493,3816,165467,989,2915,945,20.5835,0.255912,0.0258954,0.0271011,4.53421,0.0253747,2.17803,0.0366745,HIBO19-B-1-1
107,913,8904,0,0,8524,78145,786080,35827,4197,165123,814,3073,998,21.941,0.248528,0.0278561,0.0227203,4.6089,0.0254836,2.18118,0.0393243,HIBO19-B-1-1
107.5,722,8472,0,0,8476,75546,811874,34597,5177,159834,993,2576,593,23.4666,0.244877,0.0171402,0.0287019,4.61988,0.0208689,2.1836,0.03409843,HIBO19-B-1-1
108,796,8310,0,214,8335,75037,846472,34413,4634,150970,1045,2424,799,24.5974,0.241479,0.02321797,0.0303664,4.387,0.0231308,2.18048,0.0323041,HIBO19-B-1-1
108.5,1036,10103,0,100,8130,85546,774328,38323,4141,160163,1091,3132,964,20.2053,0.263628,0.0251546,0.0284685,4.17929,0.0270334,2.23224,0.0366119,HIBO19-B-1-1
109,891,9463,0,142,8511,82946,852900,36775,6775,160381,1090,2452,833,23.1924,0.257322,0.0226513,0.0296397,4.36114,0.0242284,2.2555,0.0295614,HIBO19-B-1-1
109.5,946,8787,0,130,8186,82822,811012,35160,5102,153721,1049,2624,858,23.0663,0.249915,0.02440273,0.02983504,4.37204,0.0269056,2.35557,0.0316824,HIBO19-B-1-1
110,802,8691,0,0,8555,82476,747143,35083,4739,154536,1048,3231,945,21.2964,0.247727,0.0269361,0.029872,4.40487,0.0228601,2.35088,0.039175,HIBO19-B-1-1
110.5,841,8961,0,52,8491,82432,770213,35772,4691,153802,948,2941,922,21.5312,0.250503,0.0257743,0.0265012,4.29951,0.02351,2.30437,0.0356779,HIBO19-B-1-1
111,884,8515,0,75,8548,78489,791449,36141,4792,162130,962,2750,1006,21.8989,0.235605,0.0278354,0.026618,4.48604,0.0244598,2.17174,0.0350368,HIBO19-B-1-1
111.5,923,8705,0,117,8486,77496,746336,36871,5226,169076,1203,2795,1029,20.2418,0.236093,0.0279081,0.0326273,4.58561,0.0250332,2.10181,0.0360664,HIBO19-B-1-1
112,880,8801,0,53,8549,81901,689081,38251,3053,175340,1035,3158,698,18.0147,0.230085,0.0182479,0.0270581,4.58393,0.0230059,2.14115,0.0385587,HIBO19-B-1-1
112.5,854,8376,0,68,8550,79457,732680,37527,7687,162421,927,2969,1026,19.5241,0.223199,0.0273403,0.0247022,4.32811,0.0227569,2.11733,0.0373661,HIBO19-B-1-1
113,712,8498,0,128,8608,79824,723054,36682,4033,165736,1120,3003,928,19.7114,0.231667,0.0252985,0.0305327,4.51818,0.0194101,2.17611,0.0376203,HIBO19-B-1-1
113.5,880,8908,0,200,8698,83271,709670,37821,3186,167727,943,2963,869,18.7639,0.235531,0.0229767,0.0249332,4.43476,0.0232675,2.20171,0.0355826,HIBO19-B-1-1
114,962,8468,0,70,8624,81496,687931,36597,3731,164613,882,2956,883,18.7975,0.231385,0.0241277,0.0241003,4.49799,0.0262863,2.22685,0.0362717,HIBO19-B-1-1
114.5,845,8691,0,106,8690,88167,599277,39011,3605,164644,912,3403,880,15.3617,0.222783,0.02255774,0.023378,4.22045,0.0216606,2.26005,0.0385972,HIBO19-B-1-1
115,916,8457,0,113,8555,78149,717980,37016,4484,165291,1033,2927,743,19.3965,0.228469,0.0200724,0.0279069,4.46539,0.0247461,2.11122,0.0374541,HIBO19-B-1-1
115.5,802,7916,0,158,9018,71107,654955,35622,5081,184432,982,2719,726,18.3863,0.222222,0.0203807,0.0275672,5.17747,0.0225142,1.99615,0.0382381,HIBO19-B-1-1
116,720,6930,0,135,9023,73392,636066,33782,6204,151509,1040,2881,797,18.8285,0.205139,0.0235924,0.0307856,4.4849,0.0213131,2.17252,0.03925496,HIBO19-B-1-1
116.5,854,7820,0,136,8560,79517,638223,37162,6050,165014,883,3014,984,17.1741,0.21043,0.0264787,0.0237608,4.4404,0.0229805,2.13974,0.0379038,HIBO19-B-1-1
117,789,7417,0,165,9198,74844,751311,35612,4430,160732,958,2688,870,21.0971,0.208272,0.02443,0.026901,4.51342,0.0221555,2.10165,0.0359147,HIBO19-B-1-1
117.5,833,7362,0,115,8924,73710,751786,34101,5176,164970,917,2500,677,22.0459,0.215888,0.01985279,0.0268907,4.83769,0.0244274,2.16152,0.0339167,HIBO19-B-1-1
118,767,8008,0,146,8531,74724,786222,34477,5607,160725,998,2857,950,22.8042,0.232271,0.0275546,0.0289468,4.6618,0.0222467,2.16736,0.038234,HIBO19-B-1-1
118.5,695,7311,0,121,8395,72513,743514,34166,3994,163930,1066,2792,978,21.7618,0.213985,0.0286249,0.0312006,4.79804,0.02034186,2.12237,0.0385034,HIBO19-B-1-1
119,757,6679,0,72,8539,74548,708981,34836,8109,152419,970,3024,722,20.352,0.191727,0.0207257,0.0278448,4.37533,0.0217304,2.13997,0.0405645,HIBO19-B-1-1
119.5,694,6273,0,186,9036,71076,653143,31990,4706,149180,885,3088,755,20.4171,0.196093,0.0236011,0.0276649,4.66333,0.0216943,2.22182,0.0434465,HIBO19-B-1-1
120,584,6495,0,141,8924,70156,707961,32121,4271,146059,1110,2798,1158,22.0404,0.202204,0.0360512,0.0345568,4.54715,0.0181813,2.18412,0.0398825,HIBO19-B-1-1
120.5,875,8232,0,133,8840,83422,743574,37634,5257,162171,914,2956,1014,19.758,0.218738,0.0269437,0.0242865,4.30916,0.0232503,2.21667,0.0354343,HIBO19-B-1-1
121,682,6266,0,125,8735,79223,684144,36195,3567,164423,956,3155,878,18.9016,0.173118,0.0242575,0.0264125,4.5427,0.0188424,2.18878,0.0398243,HIBO19-B-1-1
121.5,624,6743,0,210,8714,76196,713428,34910,5965,161653,846,3031,1003,20.4362,0.193154,0.028731,0.0242337,4.63056,0.0178745,2.18264,0.039779,HIBO19-B-1-1
122,599,5756,0,157,8588,70173,702245,33216,3691,157098,813,2784,741,21.1418,0.17329,0.0223085,0.0244762,4.72959,0.0180335,2.11263,0.0396734,HIBO19-B-1-1
122.5,624,6582,0,192,8530,68913,695303,33468,4022,164121,933,2646,904,20.7752,0.196665,0.0270109,0.0278774,4.90382,0.0186447,2.05907,0.0383962,HIBO19-B-1-1
123,767,7502,0,221,8749,73359,718611,34285,2453,160170,927,2984,1252,20.9599,0.218813,0.0365174,0.0270381,4.67172,0.0223713,2.13968,0.0406767,HIBO19-B-1-1
123.5,797,7969,0,229,8476,71548,612622,38242,3772,194325,806,3163,897,16.0196,0.208383,0.0234559,0.0210763,5.08145,0.02084096,1.87093,0.0442081,HIBO19-B-1-1
124,666,7377,0,153,8379,69818,698233,34024,4236,157822,876,2946,732,20.5218,0.216818,0.0215142,0.0257465,4.63855,0.0195744,2.05202,0.0421954,HIBO19-B-1-1
124.5,718,5923,0,197,9001,61981,621854,30846,4298,148073,995,2473,915,20.16,0.192018,0.02966349,0.032257,4.8004,0.0232769,2.00937,0.0398993,HIBO19-B-1-1
125,566,4658,0,225,8724,57733,540697,29198,4224,141854,919,2840,1101,18.5183,0.159531,0.0377081,0.0314748,4.85835,0.0193849,1.97729,0.04919197,HIBO19-B-1-1
125.5,833,8355,0,130,8940,78098,773001,35323,2748,150908,977,2709,708,21.8838,0.236531,0.0200436,0.027659,4.27223,0.0235824,2.21097,0.0346872,HIBO19-B-1-1
126,969,9006,0,123,8960,84446,631264,38463,4732,173590,1085,3194,1032,16.4122,0.234147,0.02683098,0.0282089,4.51317,0.025193,2.19551,0.037823,HIBO19-B-1-1
126.5,789,6396,0,253,9030,69479,576921,33971,2344,161291,1025,3290,915,16.9827,0.188278,0.0269347,0.0301728,4.7479,0.0232257,2.04524,0.0473524,HIBO19-B-1-1
127,377,3277,0,287,8153,47960,442194,27467,4817,156396,1082,2990,1063,16.0991,0.119307,0.038701,0.0393927,5.69396,0.0137256,1.7461,0.06234362,HIBO19-B-1-1
127.5,698,6340,0,204,8629,69905,601216,34875,3653,172134,738,3072,938,17.2392,0.181792,0.0268961,0.02116129,4.93574,0.0200143,2.00444,0.0439454,HIBO19-B-1-1
128,976,9683,0,152,8663,86998,640476,39893,4324,184316,973,2729,998,16.0548,0.242724,0.02501692,0.0243902,4.62026,0.0244654,2.18078,0.0313685,HIBO19-B-1-1
128.5,808,8899,0,244,8969,93641,508842,43102,3222,191238,923,3360,1087,11.8055,0.206464,0.0252192,0.02141432,4.43687,0.01874623,2.17254,0.0358817,HIBO19-B-1-1
[...]
2338.5,901,37315,0,0,9396,48063,503530,19546,2498,78601,417,1768,1110,25.7613,1.90909,0.0567891,0.0213343,4.02133,0.0460964,2.45897,0.0367851,HIBO19-A-11-2
2339,874,34467,0,0,9354,48368,480942,25746,2239,83145,583,1785,1360,18.6803,1.33873,0.05282374,0.0226443,3.22943,0.033947,1.87866,0.0369046,HIBO19-A-11-2
2339.5,888,18226,0,0,9749,62181,645852,39947,3432,135136,656,2128,2346,16.1677,0.456255,0.0587278,0.0164218,3.38288,0.0222295,1.55659,0.0342227,HIBO19-A-11-2
2340,1057,26048,0,0,10386,67818,695730,34657,2957,119907,554,2035,1315,20.0747,0.751594,0.0379433,0.0159852,3.45982,0.0304989,1.95683,0.0300068,HIBO19-A-11-2
2340.5,1105,21439,0,0,9172,74509,680104,40299,2640,146278,758,2488,1536,16.8764,0.531998,0.03811509,0.0188094,3.62982,0.02742,1.8489,0.0333919,HIBO19-A-11-2
2341,927,26389,0,0,9672,55248,465141,28377,3022,91213,545,1905,1722,16.3915,0.929943,0.0606829,0.0192057,3.21433,0.0326673,1.94693,0.0344809,HIBO19-A-11-2
2341.5,783,26643,0,0,8608,46878,397595,22942,1922,80619,542,2081,1129,17.3304,1.16132,0.0492111,0.0236248,3.51404,0.0341295,2.04333,0.0443918,HIBO19-A-11-2
2342,1032,18864,0,0,9536,69632,634172,38376,4094,145578,723,2262,1601,16.5252,0.491557,0.0417188,0.0188399,3.79346,0.0268918,1.81447,0.0324851,HIBO19-A-11-2
2342.5,1341,14907,0,0,9719,93449,867650,53421,1856,215474,843,2557,1806,16.2417,0.279048,0.03380693,0.0157803,4.03351,0.0251025,1.74929,0.0273625,HIBO19-A-11-2
2343,1208,13793,0,74,9281,91698,888569,53666,2780,213481,1004,2475,1961,16.5574,0.257016,0.0365408,0.0187083,3.97796,0.0225096,1.70868,0.0269908,HIBO19-A-11-2
2343.5,1289,13940,0,18,9409,92183,858915,55059,2533,211512,721,2409,1906,15.5999,0.253183,0.03461741,0.013095,3.84155,0.02341125,1.67426,0.0261328,HIBO19-A-11-2
2344,1014,12850,0,0,9205,87684,840373,53076,3133,199950,961,2555,2052,15.8334,0.242106,0.0386615,0.0181061,3.76724,0.01910468,1.65205,0.0291387,HIBO19-A-11-2
2344.5,1180,13469,0,0,8885,89156,852788,55998,2296,202141,957,2693,1861,15.2289,0.240526,0.03323333,0.0170899,3.60979,0.0210722,1.59213,0.0302055,HIBO19-A-11-2
2345,1154,13861,0,0,9130,87003,868010,53409,3573,195387,787,2616,1818,16.2521,0.259526,0.0340392,0.0147353,3.65832,0.0216068,1.629,0.0300679,HIBO19-A-11-2
2345.5,1222,13513,0,0,8825,87646,857131,53531,1754,205668,969,2827,1922,16.0119,0.252433,0.0359044,0.0181017,3.84204,0.0228279,1.63729,0.0322548,HIBO19-A-11-2
2346,1174,13341,0,0,9578,84684,823606,50355,2321,183314,940,2548,1753,16.356,0.264939,0.0348128,0.0186675,3.64043,0.0233145,1.68174,0.0300883,HIBO19-A-11-2
2346.5,1051,13457,0,0,9422,80729,819100,47950,2200,177905,777,2372,2001,17.0824,0.280647,0.04173097,0.01620438,3.71022,0.0219187,1.68361,0.0293823,HIBO19-A-11-2
2347,1234,14909,0,0,8971,84845,922843,52712,3037,192175,803,2502,1844,17.5073,0.282839,0.0349825,0.0152337,3.64575,0.0234102,1.6096,0.0294891,HIBO19-A-11-2
2347.5,1267,15109,0,0,9088,88984,901999,56468,2427,206052,952,2518,2315,15.9736,0.267567,0.0409967,0.0168591,3.649,0.0224375,1.57583,0.0282972,HIBO19-A-11-2
2348,953,16320,0,0,9267,72743,844751,52641,2741,152908,674,2077,3059,16.0474,0.310025,0.0581106,0.0128037,2.90473,0.0181038,1.38187,0.0285526,HIBO19-A-11-2
2348.5,965,11880,0,35,8454,76061,647447,44465,3313,158390,709,2422,1897,14.5608,0.267176,0.0426628,0.0159451,3.56213,0.0217025,1.71058,0.0318429,HIBO19-A-11-2
2349,1336,15119,0,50,8830,91058,862833,54489,3645,195705,863,2617,1854,15.835,0.277469,0.0340252,0.0158381,3.59164,0.02451871,1.67113,0.0287399,HIBO19-A-11-2
2349.5,1135,25725,0,0,9425,70017,691788,43174,2772,131316,560,2208,1422,16.0233,0.595845,0.03293649,0.0129708,3.04155,0.02628897,1.62174,0.0315352,HIBO19-A-11-2
2350,956,33818,0,0,8840,53395,513370,20223,2334,81296,563,2067,1162,25.3855,1.67225,0.0574593,0.0278396,4.01998,0.0472729,2.64031,0.03871149,HIBO19-A-11-2
2350.5,860,35959,0,0,8670,47262,454429,17598,2839,65790,584,1760,1057,25.8228,2.04336,0.0600636,0.0331856,3.73849,0.04886919,2.68565,0.03723922,HIBO19-A-11-2
2351,709,34370,0,0,8626,45786,481746,12894,2331,58649,528,2045,1229,37.362,2.66558,0.0953157,0.0409493,4.54855,0.0549868,3.55095,0.0446643,HIBO19-A-11-2
2351.5,907,36681,0,0,9097,52871,432481,18917,1613,78893,543,1768,1487,22.862,1.93905,0.0786065,0.02870434,4.17048,0.0479463,2.79489,0.0334399,HIBO19-A-11-2
2352,841,33573,0,0,8896,49163,492593,17711,1687,63347,710,1998,1071,27.8128,1.8956,0.0604709,0.0400881,3.5767,0.0474846,2.77585,0.0406403,HIBO19-A-11-2
2352.5,835,30758,0,0,9073,51795,538343,28815,1791,81382,559,1806,829,18.6827,1.06743,0.0287697,0.0193996,2.82429,0.028978,1.7975,0.0348682,HIBO19-A-11-2
2353,851,31618,0,0,8822,50922,509020,22680,3562,72695,572,1771,1410,22.4436,1.39409,0.0621693,0.0252205,3.20525,0.037522,2.24524,0.0347787,HIBO19-A-11-2
2353.5,769,31337,0,0,8800,53940,500488,20988,1849,84190,594,1883,1382,23.8464,1.49309,0.0658472,0.0283019,4.01134,0.03664,2.57004,0.0349092,HIBO19-A-11-2
2354,734,32185,0,0,8893,47652,512962,22124,2623,73093,592,1678,1265,23.1858,1.45476,0.0571777,0.0267583,3.30379,0.0331766,2.15386,0.0352136,HIBO19-A-11-2
2354.5,649,29306,0,0,8616,44184,508006,24178,3602,81576,452,1914,1445,21.0111,1.21209,0.0597651,0.0186947,3.37398,0.0268426,1.82745,0.0433188,HIBO19-A-11-2
2355,770,32776,0,0,8479,45665,513657,26875,2166,67136,654,1796,799,19.1128,1.21957,0.0297302,0.0243349,2.49808,0.0286512,1.69916,0.0393299,HIBO19-A-11-2
2355.5,839,31054,0,0,8235,49839,528121,21447,2761,88217,658,1832,1200,24.6245,1.44794,0.0559519,0.0306803,4.11326,0.03911969,2.32382,0.0367584,HIBO19-A-11-2
2356,807,32436,0,0,8028,46077,441894,20183,829,80997,724,1959,1435,21.8944,1.6071,0.07109944,0.0358718,4.01313,0.0399841,2.28296,0.0425158,HIBO19-A-11-2
2356.5,863,33977,0,0,8094,44967,476461,23425,2248,73342,435,1879,1594,20.3399,1.45046,0.068047,0.0185699,3.13093,0.036841,1.91962,0.0417862,HIBO19-A-11-2
2357,716,28870,0,0,8188,42074,431610,22402,2441,75385,681,1787,1454,19.2666,1.28872,0.0649049,0.0303991,3.3651,0.0319614,1.87814,0.0424728,HIBO19-A-11-2
2357.5,824,32274,0,13,8741,48688,432313,17794,4166,82775,586,1781,1102,24.2954,1.81376,0.061931,0.0329324,4.65185,0.0463077,2.7362,0.0365799,HIBO19-A-11-2
2358,741,31862,0,0,8612,44971,480999,17772,2811,64706,632,1850,1571,27.065,1.79282,0.0883975,0.0355616,3.6409,0.0416948,2.53044,0.0411376,HIBO19-A-11-2
2358.5,903,33828,0,0,8652,47281,441250,20783,2745,87913,688,1808,878,21.2313,1.62768,0.0422461,0.033104,4.23004,0.043449,2.27498,0.0382395,HIBO19-A-11-2
2359,888,35865,0,0,9167,49681,584324,15271,1976,75778,549,2211,844,38.2636,2.34857,0.0552682,0.0359505,4.96222,0.0581494,3.25329,0.0445039,HIBO19-A-11-2
2359.5,630,29526,0,0,8591,41331,438508,18619,2463,52466,567,1409,633,23.5516,1.5858,0.0339975,0.0304528,2.81787,0.0338364,2.21983,0.0340906,HIBO19-A-11-2
2360,804,34862,0,0,8605,45566,482582,19892,1799,64742,645,1760,963,24.2601,1.75256,0.0484114,0.0324251,3.25468,0.0404183,2.29067,0.0386253,HIBO19-A-11-2
2360.5,727,33771,0,0,8446,39360,489556,18669,4116,72947,686,1874,772,26.2229,1.80893,0.041352,0.0367454,3.90739,0.0389416,2.10831,0.0476118,HIBO19-A-11-2
2361,699,32208,0,0,8373,41365,523835,16385,3340,75788,730,1740,854,31.9704,1.9657,0.0521208,0.0445529,4.62545,0.04266097,2.52457,0.0420645,HIBO19-A-11-2
2361.5,802,31239,0,0,8593,52426,489078,23224,3152,67957,626,1976,1069,21.0592,1.34512,0.04603,0.0269549,2.92615,0.0345332,2.25741,0.0376912,HIBO19-A-11-2
2362,853,31272,0,0,8622,53319,566875,19364,3038,82589,447,1898,954,29.2747,1.61496,0.04926668,0.0230841,4.26508,0.0440508,2.75351,0.0355971,HIBO19-A-11-2
2362.5,902,35576,0,0,8472,55301,576940,18833,3019,64505,570,1970,929,30.6345,1.88902,0.0493283,0.030266,3.4251,0.0478947,2.93639,0.0356232,HIBO19-A-11-2
2363,894,34815,0,0,8626,48720,513708,19649,2066,82124,709,1816,1180,26.1442,1.77185,0.0600539,0.0360833,4.17955,0.0454985,2.47952,0.03727422,HIBO19-A-11-2
2363.5,860,36446,0,0,8672,45048,500304,20033,1375,73021,546,1698,857,24.974,1.8193,0.0427794,0.027255,3.64504,0.0429292,2.24869,0.0376931,HIBO19-A-11-2
2364,814,35238,0,0,8263,49828,541276,19051,1893,69613,606,1908,1288,28.4119,1.84967,0.067608,0.0318094,3.65403,0.0427274,2.61551,0.0382917,HIBO19-A-11-2
2364.5,918,22331,0,0,7761,48890,571165,29836,3298,107027,708,1824,1972,19.1435,0.748458,0.0660947,0.0237297,3.58718,0.0307682,1.63862,0.0373082,HIBO19-A-11-2
2365,1535,17370,0,86,8604,98673,934259,57423,1329,214491,1333,2853,1768,16.2698,0.302492,0.0307891,0.0232137,3.73528,0.0267314,1.71835,0.0289137,HIBO19-A-11-2
2365.5,1130,17645,0,90,8972,67532,816273,52695,1633,149574,854,2107,2957,15.4905,0.334852,0.0561154,0.0162065,2.83849,0.02144416,1.28156,0.0312,HIBO19-A-11-2
2366,1228,14919,0,44,8855,89933,899673,54946,3472,193542,931,2551,1916,16.3738,0.271521,0.0348706,0.0169439,3.5224,0.0223492,1.63675,0.0283656,HIBO19-A-11-2
2366.5,1306,14290,0,0,8607,94100,878417,52672,3067,213362,670,2805,1446,16.6771,0.271302,0.0274529,0.0127202,4.05077,0.024795,1.78653,0.0298087,HIBO19-A-11-2
2367,1075,13596,0,42,9194,95723,744041,53756,2995,212529,756,2652,1996,13.8411,0.252921,0.0371307,0.0140635,3.95359,0.0199978,1.78069,0.02770494,HIBO19-A-11-2
2367.5,843,15154,0,0,8934,58727,765729,38036,2566,122800,655,1879,2857,20.1317,0.398412,0.0751131,0.0172205,3.22852,0.0221632,1.54398,0.0319955,HIBO19-A-11-2
2368,789,17282,0,0,8669,55689,788344,34860,4432,112467,779,2095,1532,22.6146,0.495754,0.0439472,0.0223465,3.22625,0.0226334,1.5975,0.0376196,HIBO19-A-11-2
2368.5,1029,14971,0,0,8614,72033,659487,39666,3349,154898,784,2349,1955,16.626,0.377427,0.0492865,0.019765,3.90506,0.0259416,1.81599,0.0326101,HIBO19-A-11-2
2369,1303,14814,0,0,8458,88176,844311,48016,2399,188255,935,2854,1934,17.584,0.308522,0.0402782,0.0194727,3.92067,0.0271368,1.83639,0.0323671,HIBO19-A-11-2
2369.5,1445,16067,0,47,8554,93863,911421,54995,2975,221767,799,2898,1588,16.5728,0.292154,0.0288754,0.0145286,4.03249,0.0262751,1.70676,0.0308748,HIBO19-A-11-2
2370,1423,15274,0,21,8783,97794,884314,56734,2369,221499,1046,2912,2185,15.587,0.269221,0.0385131,0.0184369,3.90417,0.025082,1.72373,0.0297769,HIBO19-A-11-2
2370.5,1323,14414,0,0,8677,93022,895266,51723,3504,210802,744,2813,1610,17.3089,0.278677,0.0311274,0.0143843,4.07559,0.0255786,1.79846,0.0302402,HIBO19-A-11-2
2371,1248,13765,0,99,9028,94215,937670,54792,1820,218358,938,2705,2109,17.1133,0.251223,0.038491,0.0171193,3.98522,0.022777,1.7195,0.0287109,HIBO19-A-11-2
2371.5,1539,16328,0,128,8931,98076,963636,56872,3944,218464,725,2603,1972,16.9439,0.287101,0.0346744,0.0127479,3.84133,0.0270608,1.7245,0.0265406,HIBO19-A-11-2
2372,1259,17144,0,23,9391,87960,1003736,55196,3162,192146,921,2502,2625,18.1849,0.310602,0.0475578,0.016686,3.48116,0.0228096,1.59359,0.0284447,HIBO19-A-11-2
2372.5,1191,18979,0,35,9441,75787,819515,39471,1954,149542,604,2317,1598,20.7625,0.480834,0.04048542,0.0153024,3.78865,0.0301741,1.92007,0.0305725,HIBO19-A-11-2
2373,1521,16361,0,0,9258,91402,963048,52883,3128,193780,867,2484,2017,18.2109,0.309381,0.0381408,0.0163947,3.66432,0.0287616,1.72838,0.0271766,HIBO19-A-11-2
2373.5,1506,17752,0,0,9317,87339,1027634,69581,2795,192126,1078,2472,4238,14.7689,0.255127,0.0609074,0.0154927,2.76118,0.02164384,1.25521,0.0283035,HIBO19-A-11-2
2374,944,15389,0,29,9804,69286,875387,46865,1436,141121,1052,2220,2025,18.6789,0.328369,0.0432092,0.0224475,3.01122,0.020143,1.47842,0.0320411,HIBO19-A-11-2
2374.5,1003,14320,0,8,8994,85179,791041,48067,2653,175234,617,2365,1835,16.457,0.297917,0.03817588,0.0128362,3.64562,0.0208667,1.77209,0.0277651,HIBO19-A-11-2
2375,1302,16507,0,166,9215,91383,953512,56938,3314,200390,1024,2411,2262,16.7465,0.289912,0.0397274,0.0179845,3.51944,0.022867,1.60496,0.0263835,HIBO19-A-11-2
2375.5,884,14703,0,142,9508,78540,667444,41618,2095,149126,694,2442,1305,16.0374,0.353285,0.0313566,0.0166755,3.58321,0.0212408,1.88716,0.0310924,HIBO19-A-11-2
2376,774,18373,0,119,9445,58390,801705,43995,1685,118843,791,1725,3574,18.2226,0.417616,0.0812365,0.0179793,2.70128,0.0175929,1.3272,0.02954273,HIBO19-A-11-2
2376.5,901,15898,0,28,9183,66926,692772,40448,2242,132947,798,2027,2412,17.1275,0.393048,0.05963212,0.019729,3.28686,0.0222755,1.65462,0.0302872,HIBO19-A-11-2
2377,1005,16404,0,93,9353,82130,644557,45324,1495,160016,964,2303,2333,14.2211,0.361927,0.0514738,0.0212691,3.53049,0.0221737,1.81206,0.0280409,HIBO19-A-11-2
2377.5,925,18323,0,114,9144,76178,630933,42615,2385,156472,530,2164,2128,14.8054,0.429966,0.0499355,0.0124369,3.67176,0.021706,1.78759,0.0284072,HIBO19-A-11-2
2378,1140,20364,0,28,8879,68243,753177,46020,3236,138195,814,2131,2114,16.3663,0.442503,0.0459365,0.017688,3.00293,0.0247718,1.4829,0.0312266,HIBO19-A-11-2
2378.5,1454,15705,0,175,9204,95777,939815,56246,3120,211424,1019,2650,1958,16.709,0.27922,0.0348114,0.0181168,3.75892,0.0258507,1.70282,0.0276684,HIBO19-A-11-2
2379,1320,16400,0,195,9590,92120,916375,57489,3997,210331,845,2677,1858,15.94,0.285272,0.0323192,0.0146985,3.65863,0.0229609,1.60239,0.0290599,HIBO19-A-11-2
2379.5,841,19842,0,175,9664,60924,718864,42709,2167,125346,581,2091,2728,16.8317,0.464586,0.0638741,0.01360369,2.93488,0.0196914,1.42649,0.03432145,HIBO19-A-11-2
2380,1032,23097,0,0,9497,68555,652313,37543,2527,132457,723,2369,1553,17.3751,0.615215,0.0413659,0.0192579,3.52814,0.02748848,1.82604,0.0345562,HIBO19-A-11-2
2380.5,1329,25736,0,104,9507,79338,559274,33014,2393,148061,745,2558,1185,16.9405,0.779548,0.0358939,0.0225662,4.48479,0.0402556,2.40316,0.0322418,HIBO19-A-11-2
2381,1093,24606,0,94,9467,67089,721943,40157,2750,119408,608,1882,2055,17.978,0.612745,0.0511741,0.0151406,2.97353,0.0272182,1.67067,0.0280523,HIBO19-A-11-2
2381.5,1121,14947,0,2272,9896,81633,548226,45886,2147,225646,912,2408,1913,11.9476,0.325742,0.0416903,0.0198753,4.91753,0.0244301,1.77904,0.0294979,HIBO19-A-11-2
2382,933,15933,0,3412,9483,81747,562394,41728,2132,248789,740,2303,1617,13.4776,0.38183,0.038751,0.0177339,5.96216,0.0223591,1.95904,0.0281723,HIBO19-A-11-2
2382.5,1273,24582,0,664,9618,81559,757572,50250,2873,158327,871,2252,2673,15.0761,0.489194,0.05319403,0.0173333,3.15079,0.0253333,1.62306,0.0276119,HIBO19-A-11-2
2383,936,33306,0,0,9314,51385,538080,24972,2759,81358,587,1938,1794,21.5473,1.33373,0.0718405,0.0235063,3.25797,0.03748198,2.0577,0.0377153,HIBO19-A-11-2
2383.5,1173,15141,0,0,9131,89904,873700,52329,3034,198036,786,2653,1561,16.6963,0.289342,0.0298305,0.0150204,3.78444,0.0224159,1.71805,0.0295093,HIBO19-A-11-2
2384,1445,15939,0,0,9635,95180,930861,52577,1259,207562,962,2859,1707,17.7047,0.303155,0.0324667,0.018297,3.94777,0.0274835,1.8103,0.0300378,HIBO19-A-11-2
2384.5,1304,14506,0,11,9821,88012,879509,49226,2339,193739,711,2772,1349,17.8668,0.294682,0.0274042,0.0144436,3.9357,0.0264901,1.78792,0.0314957,HIBO19-A-11-2
2385,1478,16498,0,27,9518,92942,1026594,57265,1571,202220,877,2718,2049,17.9271,0.288099,0.035781,0.0153148,3.5313,0.0258098,1.62302,0.029244,HIBO19-A-11-2
2385.5,1452,16495,0,0,9890,98227,978149,55521,1685,212612,677,2903,1927,17.6176,0.297095,0.0347076,0.0121936,3.8294,0.0261523,1.76919,0.029554,HIBO19-A-11-2
2386,1557,17073,0,41,9684,100200,1035637,57267,3054,208057,935,2701,1833,18.0844,0.29813,0.032008,0.01632703,3.6331,0.0271884,1.7497,0.0269561,HIBO19-A-11-2
2386.5,1511,16340,0,33,9455,96631,953178,54596,2609,202192,1087,2533,2248,17.4588,0.299289,0.0411752,0.0199099,3.70342,0.02767602,1.76993,0.02621312,HIBO19-A-11-2
2387,1598,16293,0,158,9517,100528,966914,55418,2745,217686,1083,2668,1603,17.4477,0.294002,0.02892562,0.0195424,3.92807,0.0288354,1.814,0.0265399,HIBO19-A-11-2
2387.5,1566,16716,0,41,9695,96631,959408,54665,3499,224696,982,2846,1162,17.5507,0.30579,0.0212567,0.017964,4.11042,0.0286472,1.76769,0.0294522,HIBO19-A-11-2
2388,1315,14828,0,131,9761,93612,938945,54332,1904,216598,717,2507,1638,17.2816,0.272915,0.030148,0.0131966,3.98656,0.024203,1.72296,0.0267808,HIBO19-A-11-2
2388.5,1461,15113,0,108,9609,96593,970552,53689,2815,213541,798,2741,1574,18.0773,0.281492,0.029317,0.01486338,3.97737,0.0272123,1.79912,0.0283768,HIBO19-A-11-2
2389,1529,15531,0,315,9458,102344,912395,55106,3318,232069,954,2863,1419,16.5571,0.281839,0.0257504,0.0173121,4.21132,0.0277465,1.85722,0.0279743,HIBO19-A-11-2
2389.5,1430,14566,0,320,9666,100464,943638,56757,2245,236122,920,2679,1658,16.6259,0.256638,0.0292123,0.0162095,4.16023,0.02519513,1.77007,0.0266663,HIBO19-A-11-2
2390,1293,14293,0,81,9625,93805,1032341,55036,2942,212310,899,2647,1462,18.7576,0.259703,0.0265644,0.0163348,3.85766,0.0234937,1.70443,0.0282181,HIBO19-A-11-2
2390.5,1293,14791,0,205,9527,96737,995383,53799,1895,214325,943,2757,1422,18.5019,0.274931,0.0264317,0.0175282,3.98381,0.0240339,1.79812,0.0285,HIBO19-A-11-2
2391,1294,14203,0,278,9620,96801,986997,57541,3498,225887,983,2595,1810,17.1529,0.246833,0.0314558,0.0170835,3.92567,0.0224883,1.6823,0.0268076,HIBO19-A-11-2
2391.5,1251,15038,0,175,9765,90787,1042907,64106,2869,207410,977,2537,2300,16.2685,0.23458,0.0358781,0.0152404,3.23542,0.0195146,1.4162,0.02794453,HIBO19-A-11-2
2392,1381,15458,0,186,9429,99718,990173,55123,2925,214993,957,2756,1425,17.963,0.280427,0.0258513,0.0173612,3.90024,0.0250531,1.80901,0.0276379,HIBO19-A-11-2
2392.5,1423,14700,0,181,9486,98284,976835,57289,2163,225591,845,2588,1577,17.051,0.256594,0.0275271,0.0147498,3.93777,0.024839,1.71558,0.0263319,HIBO19-A-11-2
2393,1398,14948,0,200,9688,98267,975372,55531,1586,219265,986,2585,1418,17.5645,0.269183,0.0255353,0.0177558,3.94852,0.0251751,1.76959,0.0263059,HIBO19-A-11-2
2393.5,1206,14513,0,168,9659,97674,954073,55954,918,213580,1156,2635,1723,17.051,0.259374,0.0307932,0.0206598,3.81706,0.0215534,1.74561,0.0269775,HIBO19-A-11-2
2394,1315,14730,0,431,9711,93361,973518,51230,3317,214901,955,2733,1243,19.0029,0.287527,0.0242631,0.0186414,4.19483,0.0256686,1.82239,0.0292735,HIBO19-A-11-2
2394.5,1388,15289,0,124,9728,97593,976593,54368,2584,219058,836,2691,1409,17.9626,0.281213,0.02591598,0.0153767,4.02917,0.0255297,1.79504,0.0275737,HIBO19-A-11-2
2395,1321,15014,0,78,10372,92153,922160,53167,3095,217715,920,2991,1735,17.3446,0.282393,0.032633,0.017304,4.09493,0.0248462,1.73327,0.0324569,HIBO19-A-11-2
2395.5,1136,14457,0,36,9906,86340,825572,47117,2241,187468,835,2312,1623,17.5217,0.306832,0.0344462,0.0177218,3.97878,0.0241102,1.83246,0.0267779,HIBO19-A-11-2
2396,1426,16004,0,75,9569,99909,940097,56610,1365,224604,956,2846,1850,16.6066,0.282706,0.0326797,0.0168875,3.96757,0.0251899,1.76486,0.0284859,HIBO19-A-11-2
2396.5,1604,20000,0,804,10445,99850,527678,47653,1786,210512,777,2652,2016,11.0733,0.419701,0.0423058,0.0163054,4.4176,0.03366,2.09536,0.02655984,HIBO19-A-11-2
2397,1636,23201,0,399,9738,95724,581825,44926,1981,174907,603,2491,2059,12.9507,0.516427,0.0458309,0.0134221,3.89322,0.0364154,2.1307,0.0260227,HIBO19-A-11-2
2397.5,1580,24206,0,404,10053,97964,593706,50242,2234,187298,772,2590,1842,11.8169,0.481788,0.0366626,0.01536563,3.72792,0.0314478,1.94984,0.0264383,HIBO19-A-11-2
2398,1296,21688,0,371,10023,80271,473241,38436,1361,151369,713,2441,1727,12.3124,0.564263,0.0449318,0.0185503,3.93821,0.0337184,2.08843,0.0304095,HIBO19-A-11-2
2398.5,1295,22519,0,475,9627,79565,503008,40440,2089,151229,638,2411,1871,12.4384,0.55685,0.0462661,0.0157765,3.73959,0.03202275,1.96748,0.0303023,HIBO19-A-11-2
2399,1375,24888,0,486,9878,84399,569171,41742,2729,165015,708,2503,1823,13.6355,0.596234,0.043673,0.0169613,3.95321,0.0329404,2.02192,0.0296567,HIBO19-A-11-2
2399.5,1428,24440,0,415,9615,88966,603914,46005,2341,159831,615,2291,1696,13.1271,0.531247,0.0368656,0.0133681,3.47421,0.0310401,1.93383,0.0257514,HIBO19-A-11-2
2400,1268,24395,0,290,10010,84173,592917,40799,991,155415,764,2540,1632,14.5326,0.597931,0.04000098,0.0187259,3.80928,0.0310792,2.06311,0.0301759,HIBO19-A-11-2
2400.5,1310,27989,0,397,10133,76675,659735,44192,2004,148344,573,2597,2204,14.9288,0.63335,0.04987328,0.0129661,3.35681,0.0296434,1.73504,0.0338702,HIBO19-A-11-2
2401,nan,nan,nan,nan,nan,nan,nan,nan,nan,nan,nan,nan,nan,nan,nan,nan,nan,nan,nan,nan,nan,HIBO19-A-11-2
2401.5,nan,nan,nan,nan,nan,nan,nan,nan,nan,nan,nan,nan,nan,nan,nan,nan,nan,nan,nan,nan,nan,HIBO19-A-11-2